{
  "resourceType" : "Bundle",
  "id" : "1-1-ImmunizationAdministration",
  "meta" : {
    "lastUpdated" : "2021-06-01T00:00:00.374+02:00",
    "profile" : ["http://fhir.ch/ig/ch-vacd/StructureDefinition/ch-vacd-document-immunization-administration"]
  },
  "identifier" : {
    "system" : "urn:ietf:rfc:3986",
    "value" : "urn:uuid:5bca53b2-0973-4b91-961e-b1e93474c9c2"
  },
  "type" : "document",
  "timestamp" : "2021-06-01T00:00:00.390+02:00",
  "entry" : [{
    "fullUrl" : "http://test.fhir.ch/r4/Composition/2-1-ImmunizationAdministrationComposition",
    "resource" : {
      "resourceType" : "Composition",
      "id" : "2-1-ImmunizationAdministrationComposition",
      "meta" : {
        "profile" : ["http://fhir.ch/ig/ch-vacd/StructureDefinition/ch-vacd-composition-immunization-administration"]
      },
      "language" : "en-US",
      "text" : {
        "status" : "generated",
        "div" : "<div xml:lang=\"en-US\" xmlns=\"http://www.w3.org/1999/xhtml\" lang=\"en-US\"><div style=\"display: table;\"><div style=\"display: table-row; border-spacing: 5px;\"><div style=\"display: table-cell; font-weight: bold; width: 200px;\">Patient</div><div style=\"display: table-cell;\"><div style=\"background-color: #e3f7fd;\" class=\"patient\"><div style=\"display: table;\"><div style=\"display: table-row; border-spacing: 5px;\"><div style=\"display: table-cell; font-weight: bold; width: 200px;\">Name</div><div style=\"display: table-cell;\"><span style=\"font-weight: bold;\" class=\"highlight\">MonikaWegmueller</span></div></div><div style=\"display: table-row; border-spacing: 5px;\"><div style=\"display: table-cell; font-weight: bold; width: 200px;\">Gender</div><div style=\"display: table-cell;\"><span>female</span></div></div><div style=\"display: table-row; border-spacing: 5px;\"><div style=\"display: table-cell; font-weight: bold; width: 200px;\">Birthday</div><div style=\"display: table-cell;\"><span>10.02.1967</span></div></div><div style=\"display: table-row; border-spacing: 5px;\"><div style=\"display: table-cell; font-weight: bold; width: 200px;\">Adress</div><div style=\"display: table-cell;\"><div style=\"null\" class=\"address\"><span>Leidensweg 10</span><br/><span>CH\u00a0-\u00a0</span><span>9876\u00a0</span><span>Specimendorf\u00a0</span><span>\u00a0</span></div></div></div><div style=\"display: table-row; border-spacing: 5px;\"><div style=\"display: table-cell; font-weight: bold; width: 200px;\">Contact</div><div style=\"display: table-cell;\"><div style=\"null\" class=\"telecom\"><span>home\u00a0-\u00a0tel:+41.32.685.12.34</span></div></div></div><div style=\"display: table-row; border-spacing: 5px;\"><div style=\"display: table-cell; font-weight: bold; width: 200px;\">Identifier</div><div style=\"display: table-cell;\"><span><span>urn:oid:2.999.1.2.3.4: 12345678;\u00a0</span></span></div></div></div></div></div></div><div style=\"display: table-row; border-spacing: 5px;\"><div style=\"display: table-cell; font-weight: bold; width: 200px;\">Author</div><div style=\"display: table-cell;\"><div style=\"background-color: #f7fdf7;\" class=\"practitionerrole\"><div style=\"display: table;\"><div style=\"display: table-row; border-spacing: 5px;\"><div style=\"display: table-cell; font-weight: bold; width: 200px;\">Practitioner</div><div style=\"display: table-cell;\"><span>AllzeitBereit</span><span> (<span>urn:oid:2.51.1.3: 7601888888884;\u00a0 </span>)</span></div></div><div style=\"display: table-row; border-spacing: 5px;\"><div style=\"display: table-cell; font-weight: bold; width: 200px;\">\u00a0</div><div style=\"display: table-cell;\"><div style=\"null\" class=\"address\"><span>Doktorgasse 2</span><br/><span>CH\u00a0-\u00a0</span><span>8888\u00a0</span><span>Musterhausen\u00a0</span><span>\u00a0</span></div></div></div></div><div style=\"null\" class=\"organization\"><div style=\"display: table;\"><div style=\"display: table-row; border-spacing: 5px;\"><div style=\"display: table-cell; font-weight: bold; width: 200px;\">Organization</div><div style=\"display: table-cell;\"><span>Gruppenpraxis CH</span><span> (<span>urn:oid:2.51.1.3: 7601888888884;\u00a0 </span>)</span></div></div><div style=\"display: table-row; border-spacing: 5px;\"><div style=\"display: table-cell; font-weight: bold; width: 200px;\">\u00a0</div><div style=\"display: table-cell;\"><div style=\"null\" class=\"address\"><span>Doktorgasse 2</span><br/><span>CH\u00a0-\u00a0</span><span>8888\u00a0</span><span>Musterhausen\u00a0</span><span>ZH\u00a0</span></div></div></div></div></div></div></div></div><div style=\"display: table-row; border-spacing: 5px;\"><div style=\"display: table-cell; font-weight: bold; width: 200px;\">Date</div><div style=\"display: table-cell;\"><span>01.06.2021</span></div></div></div><div style=\"font-weight: bold; font-size: 20px; margin-top: 10px; margin-bottom: 5px; background-color: gray; color: white;\" class=\"collapsible administration\">Immunization Administration</div><div class=\"administration hiddensection\"><div style=\"display: table;\"><div style=\"display: table-row; border-spacing: 5px;\"><div style=\"display: table-cell; font-weight: bold; width: 200px; border-bottom-style: dotted; border-bottom-width: 1px; border-bottom-color: black;\">ID</div><div style=\"display: table-cell; font-weight: bold; width: 200px; border-bottom-style: dotted; border-bottom-width: 1px; border-bottom-color: black;\">Vaccination Date</div><div style=\"display: table-cell; font-weight: bold; width: 200px; border-bottom-style: dotted; border-bottom-width: 1px; border-bottom-color: black;\">Vaccine</div><div style=\"display: table-cell; font-weight: bold; width: 200px; border-bottom-style: dotted; border-bottom-width: 1px; border-bottom-color: black;\">Lot</div><div style=\"display: table-cell; font-weight: bold; width: 200px; border-bottom-style: dotted; border-bottom-width: 1px; border-bottom-color: black;\">Route</div><div style=\"display: table-cell; font-weight: bold; width: 200px; border-bottom-style: dotted; border-bottom-width: 1px; border-bottom-color: black;\">Target</div><div style=\"display: table-cell; font-weight: bold; width: 200px; border-bottom-style: dotted; border-bottom-width: 1px; border-bottom-color: black;\">Doc Date</div><div style=\"display: table-cell; font-weight: bold; width: 200px; border-bottom-style: dotted; border-bottom-width: 1px; border-bottom-color: black;\">Performer</div><div style=\"display: table-cell; font-weight: bold; width: 200px; border-bottom-style: dotted; border-bottom-width: 1px; border-bottom-color: black;\">Identifier</div></div><div style=\"display: table-row; border-spacing: 5px;\"><div style=\"display: table-cell; border-bottom-style: dotted; border-bottom-width: 1px; border-bottom-color: black;\">7-1-Immunization</div><div style=\"display: table-cell; border-bottom-style: dotted; border-bottom-width: 1px; border-bottom-color: black;\"><span>15.09.2017</span></div><div style=\"display: table-cell; border-bottom-style: dotted; border-bottom-width: 1px; border-bottom-color: black;\"><span style=\"font-weight: bold;\"><span>Boostrix (<a href=\"https://fhir.ch/ig/ch-vacd/CodeSystem-ch-vacd-swissmedic-cs.html#ch-vacd-swissmedic-cs-637\">637</a>)</span><br/></span></div><div style=\"display: table-cell; border-bottom-style: dotted; border-bottom-width: 1px; border-bottom-color: black;\"><span>12-34244</span></div><div style=\"display: table-cell; border-bottom-style: dotted; border-bottom-width: 1px; border-bottom-color: black;\"><span>20035000: Intramuscular use</span><br/></div><div style=\"display: table-cell; border-bottom-style: dotted; border-bottom-width: 1px; border-bottom-color: black;\"><span>Diphtheria caused by Corynebacterium diphtheriae (disorder)</span><br/><span>Tetanus (disorder)</span><br/><span>Pertussis (disorder)</span><br/></div><div style=\"display: table-cell; border-bottom-style: dotted; border-bottom-width: 1px; border-bottom-color: black;\"><span>15.09.2017</span></div><div style=\"display: table-cell; border-bottom-style: dotted; border-bottom-width: 1px; border-bottom-color: black;\"><div style=\"background-color: #f7fdf7;\" class=\"practitionerrole\"><div style=\"display: table;\"><div style=\"display: table-row; border-spacing: 5px;\"><div style=\"display: table-cell; font-weight: bold; width: 200px;\">Practitioner</div><div style=\"display: table-cell;\"><span>AllzeitBereit</span><span> (<span>urn:oid:2.51.1.3: 7601888888884;\u00a0 </span>)</span></div></div><div style=\"display: table-row; border-spacing: 5px;\"><div style=\"display: table-cell; font-weight: bold; width: 200px;\">\u00a0</div><div style=\"display: table-cell;\"><div style=\"null\" class=\"address\"><span>Doktorgasse 2</span><br/><span>CH\u00a0-\u00a0</span><span>8888\u00a0</span><span>Musterhausen\u00a0</span><span>\u00a0</span></div></div></div></div><div style=\"null\" class=\"organization\"><div style=\"display: table;\"><div style=\"display: table-row; border-spacing: 5px;\"><div style=\"display: table-cell; font-weight: bold; width: 200px;\">Organization</div><div style=\"display: table-cell;\"><span>Gruppenpraxis CH</span><span> (<span>urn:oid:2.51.1.3: 7601888888884;\u00a0 </span>)</span></div></div><div style=\"display: table-row; border-spacing: 5px;\"><div style=\"display: table-cell; font-weight: bold; width: 200px;\">\u00a0</div><div style=\"display: table-cell;\"><div style=\"null\" class=\"address\"><span>Doktorgasse 2</span><br/><span>CH\u00a0-\u00a0</span><span>8888\u00a0</span><span>Musterhausen\u00a0</span><span>ZH\u00a0</span></div></div></div></div></div></div></div><div style=\"display: table-cell; border-bottom-style: dotted; border-bottom-width: 1px; border-bottom-color: black;\"><span>urn:oid:2.999.1.2.3.4: 1829774;\u00a0</span></div></div></div></div><div style=\"font-weight: bold; font-size: 20px; margin-top: 10px; margin-bottom: 5px; background-color: gray; color: white;\" class=\"collapsible Annotation\">Comments</div><div class=\"Annotation hiddensection\"/></div>"
      },
      "identifier" : {
        "system" : "urn:ietf:rfc:3986",
        "value" : "urn:uuid:5bca53b2-0973-4b91-961e-b1e93474c9c2"
      },
      "status" : "final",
      "type" : {
        "coding" : [{
          "system" : "http://snomed.info/sct",
          "code" : "41000179103",
          "display" : "Immunization record"
        }]
      },
      "category" : [{
        "coding" : [{
          "system" : "urn:oid:2.16.756.5.30.1.127.3.10.10",
          "code" : "urn:che:epr:ch-vacd:immunization-administration:2022"
        }]
      }],
      "subject" : {
        "reference" : "Patient/3-1-Patient"
      },
      "date" : "2021-06-01T00:00:00+02:00",
      "author" : [{
        "reference" : "PractitionerRole/6-1-PractitionerRole"
      }],
      "title" : "Immunization Administration",
      "confidentiality" : "N",
      "_confidentiality" : {
        "extension" : [{
          "url" : "http://fhir.ch/ig/ch-core/StructureDefinition/ch-ext-epr-confidentialitycode",
          "valueCodeableConcept" : {
            "coding" : [{
              "system" : "http://snomed.info/sct",
              "code" : "17621005",
              "display" : "Normal (qualifier value)"
            }]
          }
        }]
      },
      "custodian" : {
        "reference" : "Organization/5-1-Organization"
      },
      "section" : [{
        "id" : "administration",
        "title" : "Immunization Administration",
        "code" : {
          "coding" : [{
            "system" : "http://loinc.org",
            "code" : "11369-6",
            "display" : "Hx of Immunization"
          }]
        },
        "text" : {
          "status" : "generated",
          "div" : "<div xml:lang=\"en-US\" xmlns=\"http://www.w3.org/1999/xhtml\" lang=\"en-US\">This is the section containing all immunization entries.</div>"
        },
        "entry" : [{
          "reference" : "Immunization/7-1-Immunization"
        }]
      },
      {
        "id" : "originalRepresentation",
        "title" : "Original representation",
        "code" : {
          "coding" : [{
            "system" : "http://loinc.org",
            "code" : "55108-5",
            "display" : "Clinical presentation Document"
          }]
        },
        "text" : {
          "status" : "generated",
          "div" : "<div xml:lang=\"en-US\" xmlns=\"http://www.w3.org/1999/xhtml\" lang=\"en-US\">This is the section containing the original representation.</div>"
        },
        "entry" : [{
          "reference" : "Binary/1-1-ImmunizationAdministration-Binary"
        }]
      },
      {
        "id" : "Annotation",
        "title" : "Comments",
        "code" : {
          "coding" : [{
            "system" : "http://loinc.org",
            "code" : "48767-8",
            "display" : "Annotation comment Imp"
          }]
        },
        "text" : {
          "status" : "generated",
          "div" : "<div xmlns=\"http://www.w3.org/1999/xhtml\">This is the section containing all immunization entries.</div>"
        }
      }]
    }
  },
  {
    "fullUrl" : "http://test.fhir.ch/r4/Patient/3-1-Patient",
    "resource" : {
      "resourceType" : "Patient",
      "id" : "3-1-Patient",
      "meta" : {
        "profile" : ["http://fhir.ch/ig/ch-core/StructureDefinition/ch-core-patient-epr"]
      },
      "text" : {
        "status" : "generated",
        "div" : "<div xmlns=\"http://www.w3.org/1999/xhtml\"><a name=\"Patient_3-1-Patient\"> </a><p class=\"res-header-id\"><b>Generated Narrative: Patient 3-1-Patient</b></p><a name=\"3-1-Patient\"> </a><a name=\"hc3-1-Patient\"> </a><a name=\"3-1-Patient-en-US\"> </a><div style=\"display: inline-block; background-color: #d9e0e7; padding: 6px; margin: 4px; border: 1px solid #8da1b4; border-radius: 5px; line-height: 60%\"><p style=\"margin-bottom: 0px\"/><p style=\"margin-bottom: 0px\">Profile: <a href=\"https://build.fhir.org/ig/hl7ch/ch-core/StructureDefinition-ch-core-patient-epr.html\">CH Core Patient EPR</a></p></div><p style=\"border: 1px #661aff solid; background-color: #e6e6ff; padding: 10px;\">Monika Wegmueller  Female, DoB: 1967-02-10 ( Medical record number)</p><hr/><table class=\"grid\"><tr><td style=\"background-color: #f3f5da\" title=\"Ways to contact the Patient\">Contact Detail</td><td colspan=\"3\"><ul><li>ph: tel:+41.32.685.12.34(Home)</li><li>Leidensweg 10 Specimendorf 9876 CH </li></ul></td></tr></table></div>"
      },
      "identifier" : [{
        "type" : {
          "coding" : [{
            "system" : "http://terminology.hl7.org/CodeSystem/v2-0203",
            "code" : "MR"
          }]
        },
        "system" : "urn:oid:2.999.1.2.3.4",
        "value" : "12345678"
      }],
      "name" : [{
        "family" : "Wegmueller",
        "given" : ["Monika"]
      }],
      "telecom" : [{
        "system" : "phone",
        "value" : "tel:+41.32.685.12.34",
        "use" : "home"
      }],
      "gender" : "female",
      "birthDate" : "1967-02-10",
      "address" : [{
        "type" : "both",
        "line" : ["Leidensweg 10"],
        "city" : "Specimendorf",
        "postalCode" : "9876",
        "country" : "CH"
      }]
    }
  },
  {
    "fullUrl" : "http://test.fhir.ch/r4/Practitioner/4-1-Practitioner",
    "resource" : {
      "resourceType" : "Practitioner",
      "id" : "4-1-Practitioner",
      "meta" : {
        "profile" : ["http://fhir.ch/ig/ch-core/StructureDefinition/ch-core-practitioner-epr"]
      },
      "text" : {
        "status" : "generated",
        "div" : "<div xmlns=\"http://www.w3.org/1999/xhtml\"><a name=\"Practitioner_4-1-Practitioner\"> </a><p class=\"res-header-id\"><b>Generated Narrative: Practitioner 4-1-Practitioner</b></p><a name=\"4-1-Practitioner\"> </a><a name=\"hc4-1-Practitioner\"> </a><a name=\"4-1-Practitioner-en-US\"> </a><div style=\"display: inline-block; background-color: #d9e0e7; padding: 6px; margin: 4px; border: 1px solid #8da1b4; border-radius: 5px; line-height: 60%\"><p style=\"margin-bottom: 0px\"/><p style=\"margin-bottom: 0px\">Profile: <a href=\"https://build.fhir.org/ig/hl7ch/ch-core/StructureDefinition-ch-core-practitioner-epr.html\">CH Core Practitioner EPR</a></p></div><p><b>identifier</b>: <a href=\"https://www.gs1.org/standards/id-keys/gln\" title=\"Global Location Number\">GLN</a>/7601888888884</p><p><b>active</b>: true</p><p><b>name</b>: Allzeit Bereit </p><p><b>telecom</b>: ph: tel:+41.32.234.55.66(Work), fax: fax:+41.32.234.55.67(Work), <a href=\"mailto:mailto:bereit@gruppenpraxis.ch\">mailto:bereit@gruppenpraxis.ch</a>, <a href=\"http://www.gruppenpraxis.ch\">http://www.gruppenpraxis.ch</a></p><p><b>address</b>: Doktorgasse 2 Musterhausen 8888 CH </p></div>"
      },
      "identifier" : [{
        "system" : "urn:oid:2.51.1.3",
        "value" : "7601888888884"
      }],
      "active" : true,
      "name" : [{
        "family" : "Bereit",
        "given" : ["Allzeit"],
        "prefix" : ["Dr. med."]
      }],
      "telecom" : [{
        "system" : "phone",
        "value" : "tel:+41.32.234.55.66",
        "use" : "work"
      },
      {
        "system" : "fax",
        "value" : "fax:+41.32.234.55.67",
        "use" : "work"
      },
      {
        "system" : "email",
        "value" : "mailto:bereit@gruppenpraxis.ch",
        "use" : "work"
      },
      {
        "system" : "url",
        "value" : "http://www.gruppenpraxis.ch",
        "use" : "work"
      }],
      "address" : [{
        "type" : "physical",
        "line" : ["Doktorgasse 2"],
        "city" : "Musterhausen",
        "postalCode" : "8888",
        "country" : "CH"
      }]
    }
  },
  {
    "fullUrl" : "http://test.fhir.ch/r4/Organization/5-1-Organization",
    "resource" : {
      "resourceType" : "Organization",
      "id" : "5-1-Organization",
      "meta" : {
        "profile" : ["http://fhir.ch/ig/ch-core/StructureDefinition/ch-core-organization-epr"]
      },
      "text" : {
        "status" : "generated",
        "div" : "<div xmlns=\"http://www.w3.org/1999/xhtml\"><a name=\"Organization_5-1-Organization\"> </a><p class=\"res-header-id\"><b>Generated Narrative: Organization 5-1-Organization</b></p><a name=\"5-1-Organization\"> </a><a name=\"hc5-1-Organization\"> </a><a name=\"5-1-Organization-en-US\"> </a><div style=\"display: inline-block; background-color: #d9e0e7; padding: 6px; margin: 4px; border: 1px solid #8da1b4; border-radius: 5px; line-height: 60%\"><p style=\"margin-bottom: 0px\"/><p style=\"margin-bottom: 0px\">Profile: <a href=\"https://build.fhir.org/ig/hl7ch/ch-core/StructureDefinition-ch-core-organization-epr.html\">CH Core Organization EPR</a></p></div><p><b>identifier</b>: <a href=\"https://www.gs1.org/standards/id-keys/gln\" title=\"Global Location Number\">GLN</a>/7601888888884</p><p><b>name</b>: Gruppenpraxis CH</p><p><b>telecom</b>: ph: tel:+41.32.234.55.66(Work), fax: fax:+41.32.234.55.67(Work), <a href=\"mailto:mailto:bereit@gruppenpraxis.ch\">mailto:bereit@gruppenpraxis.ch</a>, <a href=\"http://www.gruppenpraxis.ch\">http://www.gruppenpraxis.ch</a></p><p><b>address</b>: Doktorgasse 2 Musterhausen ZH 8888 CH </p></div>"
      },
      "identifier" : [{
        "system" : "urn:oid:2.51.1.3",
        "value" : "7601888888884"
      }],
      "name" : "Gruppenpraxis CH",
      "telecom" : [{
        "system" : "phone",
        "value" : "tel:+41.32.234.55.66",
        "use" : "work"
      },
      {
        "system" : "fax",
        "value" : "fax:+41.32.234.55.67",
        "use" : "work"
      },
      {
        "system" : "email",
        "value" : "mailto:bereit@gruppenpraxis.ch",
        "use" : "work"
      },
      {
        "system" : "url",
        "value" : "http://www.gruppenpraxis.ch",
        "use" : "work"
      }],
      "address" : [{
        "line" : ["Doktorgasse 2"],
        "city" : "Musterhausen",
        "state" : "ZH",
        "postalCode" : "8888",
        "country" : "CH"
      }]
    }
  },
  {
    "fullUrl" : "http://test.fhir.ch/r4/PractitionerRole/6-1-PractitionerRole",
    "resource" : {
      "resourceType" : "PractitionerRole",
      "id" : "6-1-PractitionerRole",
      "meta" : {
        "profile" : ["http://fhir.ch/ig/ch-core/StructureDefinition/ch-core-practitionerrole-epr"]
      },
      "text" : {
        "status" : "generated",
        "div" : "<div xmlns=\"http://www.w3.org/1999/xhtml\"><a name=\"PractitionerRole_6-1-PractitionerRole\"> </a><p class=\"res-header-id\"><b>Generated Narrative: PractitionerRole 6-1-PractitionerRole</b></p><a name=\"6-1-PractitionerRole\"> </a><a name=\"hc6-1-PractitionerRole\"> </a><a name=\"6-1-PractitionerRole-en-US\"> </a><div style=\"display: inline-block; background-color: #d9e0e7; padding: 6px; margin: 4px; border: 1px solid #8da1b4; border-radius: 5px; line-height: 60%\"><p style=\"margin-bottom: 0px\"/><p style=\"margin-bottom: 0px\">Profile: <a href=\"https://build.fhir.org/ig/hl7ch/ch-core/StructureDefinition-ch-core-practitionerrole-epr.html\">CH Core PractitionerRole EPR</a></p></div><p><b>active</b>: true</p><p><b>practitioner</b>: <a href=\"Practitioner-4-1-Practitioner.html\">Practitioner Allzeit Bereit </a></p><p><b>organization</b>: <a href=\"Organization-5-1-Organization.html\">Organization Gruppenpraxis CH</a></p></div>"
      },
      "active" : true,
      "practitioner" : {
        "reference" : "Practitioner/4-1-Practitioner"
      },
      "organization" : {
        "reference" : "Organization/5-1-Organization"
      }
    }
  },
  {
    "fullUrl" : "http://test.fhir.ch/r4/Immunization/7-1-Immunization",
    "resource" : {
      "resourceType" : "Immunization",
      "id" : "7-1-Immunization",
      "meta" : {
        "profile" : ["http://fhir.ch/ig/ch-vacd/StructureDefinition/ch-vacd-immunization"]
      },
      "text" : {
        "status" : "extensions",
        "div" : "<div xmlns=\"http://www.w3.org/1999/xhtml\"><a name=\"Immunization_7-1-Immunization\"> </a><p class=\"res-header-id\"><b>Generated Narrative: Immunization 7-1-Immunization</b></p><a name=\"7-1-Immunization\"> </a><a name=\"hc7-1-Immunization\"> </a><a name=\"7-1-Immunization-en-US\"> </a><div style=\"display: inline-block; background-color: #d9e0e7; padding: 6px; margin: 4px; border: 1px solid #8da1b4; border-radius: 5px; line-height: 60%\"><p style=\"margin-bottom: 0px\"/><p style=\"margin-bottom: 0px\">Profile: <a href=\"StructureDefinition-ch-vacd-immunization.html\">CH VACD Immunization</a></p></div><p><b>Author of the content</b>: <a href=\"Patient-3-1-Patient.html\">Monika Wegmueller  Female, DoB: 1967-02-10 ( Medical record number)</a></p><p><b>CH VACD Extension verificationStatus</b>: <a href=\"http://snomed.info/id/76104008\">SNOMED CT 76104008</a>: Not confirmed</p><p><b>identifier</b>: <code>urn:oid:2.999.1.2.3.4</code>/1829774</p><p><b>status</b>: Completed</p><p><b>vaccineCode</b>: <span title=\"Codes:{http://fhir.ch/ig/ch-vacd/CodeSystem/ch-vacd-swissmedic-cs 637}\">Boostrix</span></p><p><b>patient</b>: <a href=\"Patient-3-1-Patient.html\">Monika Wegmueller  Female, DoB: 1967-02-10 ( Medical record number)</a></p><p><b>occurrence</b>: 2017-09-15 09:12:56+0200</p><p><b>recorded</b>: 2017-09-15 09:12:56+0200</p><p><b>lotNumber</b>: 12-34244</p><p><b>route</b>: <span title=\"Codes:{http://standardterms.edqm.eu 20035000}\">Intramuscular use</span></p><h3>Performers</h3><table class=\"grid\"><tr><td style=\"display: none\">-</td><td><b>Actor</b></td></tr><tr><td style=\"display: none\">*</td><td><a href=\"PractitionerRole-6-1-PractitionerRole.html\">PractitionerRole</a></td></tr></table><blockquote><p><b>protocolApplied</b></p><p><b>targetDisease</b>: <span title=\"Codes:{http://snomed.info/sct 397430003}\">Diphtheria caused by Corynebacterium diphtheriae (disorder)</span>, <span title=\"Codes:{http://snomed.info/sct 76902006}\">Tetanus (disorder)</span>, <span title=\"Codes:{http://snomed.info/sct 27836007}\">Pertussis (disorder)</span></p><p><b>doseNumber</b>: 1</p></blockquote></div>"
      },
      "extension" : [{
        "url" : "http://fhir.ch/ig/ch-core/StructureDefinition/ch-ext-author",
        "valueReference" : {
          "reference" : "Patient/3-1-Patient"
        }
      },
      {
        "url" : "http://fhir.ch/ig/ch-vacd/StructureDefinition/ch-vacd-ext-verification-status",
        "valueCoding" : {
          "system" : "http://snomed.info/sct",
          "code" : "76104008",
          "display" : "Not confirmed"
        }
      }],
      "identifier" : [{
        "system" : "urn:oid:2.999.1.2.3.4",
        "value" : "1829774"
      }],
      "status" : "completed",
      "vaccineCode" : {
        "coding" : [{
          "system" : "http://fhir.ch/ig/ch-vacd/CodeSystem/ch-vacd-swissmedic-cs",
          "code" : "637",
          "display" : "Boostrix"
        }]
      },
      "patient" : {
        "reference" : "Patient/3-1-Patient"
      },
      "occurrenceDateTime" : "2017-09-15T09:12:56+02:00",
      "recorded" : "2017-09-15T09:12:56+02:00",
      "lotNumber" : "12-34244",
      "route" : {
        "coding" : [{
          "system" : "http://standardterms.edqm.eu",
          "code" : "20035000",
          "display" : "Intramuscular use"
        }]
      },
      "performer" : [{
        "actor" : {
          "reference" : "PractitionerRole/6-1-PractitionerRole"
        }
      }],
      "protocolApplied" : [{
        "targetDisease" : [{
          "coding" : [{
            "system" : "http://snomed.info/sct",
            "code" : "397430003",
            "display" : "Diphtheria caused by Corynebacterium diphtheriae (disorder)"
          }]
        },
        {
          "coding" : [{
            "system" : "http://snomed.info/sct",
            "code" : "76902006",
            "display" : "Tetanus (disorder)"
          }]
        },
        {
          "coding" : [{
            "system" : "http://snomed.info/sct",
            "code" : "27836007",
            "display" : "Pertussis (disorder)"
          }]
        }],
        "doseNumberPositiveInt" : 1
      }]
    }
  },
  {
    "fullUrl" : "http://test.fhir.ch/r4/Binary/1-1-ImmunizationAdministration-Binary",
    "resource" : {
      "resourceType" : "Binary",
      "id" : "1-1-ImmunizationAdministration-Binary",
      "contentType" : "application/pdf",
      "data" : ""
    }
  }]
}