<?xml version="1.0" encoding="UTF-8"?>

<Bundle xmlns="http://hl7.org/fhir">
  <id value="2-7-MedicationCard-UUIDfullUrl"/>
  <meta>
    <lastUpdated value="2020-02-21T12:31:59.738+00:00"/>
    <profile value="http://fhir.ch/ig/ch-emed/StructureDefinition/ch-emed-document-medicationcard"/>
  </meta>
  <identifier>
    <system value="urn:ietf:rfc:3986"/>
    <value value="urn:uuid:b4bbd9ed-bada-41b5-a513-b4bc73ca0ebb"/>
  </identifier>
  <type value="document"/>
  <timestamp value="2012-02-04T14:05:00+01:00"/>
  <entry>
    <fullUrl value="urn:uuid:d543ae7b-3a94-4a2a-a120-6ce2ee3027fc"/>
    <resource>
      <Composition>
        <id value="d543ae7b-3a94-4a2a-a120-6ce2ee3027fc"/>
        <meta>
          <profile value="http://fhir.ch/ig/ch-emed/StructureDefinition/ch-emed-composition-medicationcard"/>
        </meta>
        <language value="de-CH"/>
        <text>
          <status value="generated"/><div xmlns="http://www.w3.org/1999/xhtml" xml:lang="de-CH" lang="de-CH"><a name="Composition_d543ae7b-3a94-4a2a-a120-6ce2ee3027fc"> </a><p class="res-header-id"><b>Generated Narrative: Composition d543ae7b-3a94-4a2a-a120-6ce2ee3027fc</b></p><a name="d543ae7b-3a94-4a2a-a120-6ce2ee3027fc"> </a><a name="hcd543ae7b-3a94-4a2a-a120-6ce2ee3027fc"> </a><a name="d543ae7b-3a94-4a2a-a120-6ce2ee3027fc-en-US"> </a><div style="display: inline-block; background-color: #d9e0e7; padding: 6px; margin: 4px; border: 1px solid #8da1b4; border-radius: 5px; line-height: 60%"><p style="margin-bottom: 0px">Language: de-CH</p><p style="margin-bottom: 0px">Profile: <a href="StructureDefinition-ch-emed-composition-medicationcard.html">CH EMED Medication Card Composition</a></p></div><p><b>identifier</b>: <a href="http://terminology.hl7.org/6.1.0/NamingSystem-uri.html" title="As defined by RFC 3986 (http://www.ietf.org/rfc/rfc3986.txt)(with many schemes defined in many RFCs). For OIDs and UUIDs, use the URN form (urn:oid:(note: lowercase) and urn:uuid:). See http://www.ietf.org/rfc/rfc3001.txt and http://www.ietf.org/rfc/rfc4122.txt 

This oid is used as an identifier II.root to indicate the the extension is an absolute URI (technically, an IRI). Typically, this is used for OIDs and GUIDs. Note that when this OID is used with OIDs and GUIDs, the II.extension should start with urn:oid or urn:uuid: 

Note that this OID is created to aid with interconversion between CDA and FHIR - FHIR uses urn:ietf:rfc:3986 as equivalent to this OID. URIs as identifiers appear more commonly in FHIR.

This OID may also be used in CD.codeSystem.">Uniform Resource Identifier (URI)</a>/urn:uuid:b4bbd9ed-bada-41b5-a513-b4bc73ca0ebb</p><p><b>status</b>: Final</p><p><b>type</b>: <span title="Codes:{http://loinc.org 56445-0}, {http://snomed.info/sct 736378000}">Medication summary Document</span></p><p><b>date</b>: 2012-02-04 14:05:00+0100</p><p><b>author</b>: <a href="Bundle-2-7-MedicationCard-UUIDfullUrl.html#urn-uuid-9837b87a-aaa7-4389-aa03-39442cee2c45">Bundle: identifier = UUID:b4bbd9ed-bada-41b5-a513-b4bc73ca0ebb; type = document; timestamp = 2012-02-04 14:05:00+0100</a></p><p><b>title</b>: Medikationsplan</p><p><b>confidentiality</b>: normal</p></div>
        </text>
        <identifier>
          <system value="urn:ietf:rfc:3986"/>
          <value value="urn:uuid:b4bbd9ed-bada-41b5-a513-b4bc73ca0ebb"/>
        </identifier>
        <status value="final"/>
        <type>
          <coding>
            <system value="http://loinc.org"/>
            <code value="56445-0"/>
            <display value="Medication summary Document"/>
          </coding>
          <coding>
            <system value="http://snomed.info/sct"/>
            <code value="736378000"/>
            <display value="Medication management plan (record artifact)"/>
          </coding>
        </type>
        <subject>
          <reference value="urn:uuid:9616e879-c4d0-411e-88c3-e001cb7a8fcd"/>
        </subject>
        <date value="2012-02-04T14:05:00+01:00"/>
        <author>
          <reference value="urn:uuid:9837b87a-aaa7-4389-aa03-39442cee2c45"/>
        </author>
        <title value="Medikationsplan"/>
        <confidentiality value="N">
          <extension url="http://fhir.ch/ig/ch-core/StructureDefinition/ch-ext-epr-confidentialitycode">
            <valueCodeableConcept>
              <coding>
                <system value="http://snomed.info/sct"/>
                <code value="17621005"/>
                <display value="Normal (qualifier value)"/>
              </coding>
            </valueCodeableConcept>
          </extension>
        </confidentiality>
        <section>
          <title value="Medikamentenliste"/>
          <code>
            <coding>
              <system value="http://loinc.org"/>
              <code value="10160-0"/>
              <display value="History of Medication use Narrative"/>
            </coding>
          </code>
          <entry>
            <reference value="urn:uuid:be797d45-82c7-4d4a-8d1e-82a7fd26e44e"/>
          </entry>
          <entry>
            <reference value="urn:uuid:99e5810c-1afa-43da-8a0e-e7f9086e300a"/>
          </entry>
        </section>
        <section>
          <title value="Kommentar"/>
          <code>
            <coding>
              <system value="http://loinc.org"/>
              <code value="48767-8"/>
              <display value="Annotation comment [Interpretation] Narrative"/>
            </coding>
          </code>
          <text>
            <status value="generated"/><div xmlns="http://www.w3.org/1999/xhtml"><span id="co1">Kommentar zu Medication Treatment</span></div>
          </text>
        </section>
        <section>
          <title value="Original Darstellung"/>
          <code>
            <coding>
              <system value="http://loinc.org"/>
              <code value="55108-5"/>
              <display value="Clinical presentation Document"/>
            </coding>
          </code>
          <text>
            <status value="generated"/><div xmlns="http://www.w3.org/1999/xhtml">Representation of the original view: <span idref="d5c77e2e-798d-4437-8f73-4875c35065ef">PDF</span></div>
          </text>
          <entry>
            <reference value="urn:uuid:d5c77e2e-798d-4437-8f73-4875c35065ef"/>
          </entry>
        </section>
      </Composition>
    </resource>
  </entry>
  <entry>
    <fullUrl value="urn:uuid:9616e879-c4d0-411e-88c3-e001cb7a8fcd"/>
    <resource>
      <Patient>
        <id value="9616e879-c4d0-411e-88c3-e001cb7a8fcd"/>
        <meta>
          <profile value="http://fhir.ch/ig/ch-core/StructureDefinition/ch-core-patient-epr"/>
        </meta>
        <text>
          <status value="generated"/><div xmlns="http://www.w3.org/1999/xhtml"><a name="Patient_9616e879-c4d0-411e-88c3-e001cb7a8fcd"> </a><p class="res-header-id"><b>Generated Narrative: Patient 9616e879-c4d0-411e-88c3-e001cb7a8fcd</b></p><a name="9616e879-c4d0-411e-88c3-e001cb7a8fcd"> </a><a name="hc9616e879-c4d0-411e-88c3-e001cb7a8fcd"> </a><a name="9616e879-c4d0-411e-88c3-e001cb7a8fcd-en-US"> </a><p style="border: 1px #661aff solid; background-color: #e6e6ff; padding: 10px;">Monika Wegm端ller  Female, DoB: 1943-05-15 ( Medical record number)</p><hr/><table class="grid"><tr><td style="background-color: #f3f5da" title="Ways to contact the Patient">Contact Detail</td><td colspan="3">Wiesenstr. 12 Z端rich 8003 CH </td></tr></table></div>
        </text>
        <identifier>
          <type>
            <coding>
              <system value="http://terminology.hl7.org/CodeSystem/v2-0203"/>
              <code value="MR"/>
            </coding>
          </type>
          <system value="urn:oid:2.999.1"/>
          <value value="11111111"/>
        </identifier>
        <name>
          <family value="Wegm端ller"/>
          <given value="Monika"/>
        </name>
        <gender value="female"/>
        <birthDate value="1943-05-15"/>
        <address>
          <line value="Wiesenstr. 12"/>
          <city value="Z端rich"/>
          <postalCode value="8003"/>
          <country value="CH"/>
        </address>
      </Patient>
    </resource>
  </entry>
  <entry>
    <fullUrl value="urn:uuid:9837b87a-aaa7-4389-aa03-39442cee2c45"/>
    <resource>
      <PractitionerRole>
        <id value="9837b87a-aaa7-4389-aa03-39442cee2c45"/>
        <meta>
          <profile value="http://fhir.ch/ig/ch-emed/StructureDefinition/ch-emed-practitionerrole"/>
        </meta>
        <text>
          <status value="generated"/><div xmlns="http://www.w3.org/1999/xhtml"><a name="PractitionerRole_9837b87a-aaa7-4389-aa03-39442cee2c45"> </a><p class="res-header-id"><b>Generated Narrative: PractitionerRole 9837b87a-aaa7-4389-aa03-39442cee2c45</b></p><a name="9837b87a-aaa7-4389-aa03-39442cee2c45"> </a><a name="hc9837b87a-aaa7-4389-aa03-39442cee2c45"> </a><a name="9837b87a-aaa7-4389-aa03-39442cee2c45-en-US"> </a><p><b>practitioner</b>: <a href="Bundle-2-7-MedicationCard-UUIDfullUrl.html#urn-uuid-34dc227e-fac0-4104-958e-33510f453631">Bundle: identifier = UUID:b4bbd9ed-bada-41b5-a513-b4bc73ca0ebb; type = document; timestamp = 2012-02-04 14:05:00+0100</a></p><p><b>organization</b>: <a href="Bundle-2-7-MedicationCard-UUIDfullUrl.html#urn-uuid-7801bb18-5c19-4d4c-bcb5-536a1f51f83e">Bundle: identifier = UUID:b4bbd9ed-bada-41b5-a513-b4bc73ca0ebb; type = document; timestamp = 2012-02-04 14:05:00+0100</a></p></div>
        </text>
        <practitioner>
          <reference value="urn:uuid:34dc227e-fac0-4104-958e-33510f453631"/>
        </practitioner>
        <organization>
          <reference value="urn:uuid:7801bb18-5c19-4d4c-bcb5-536a1f51f83e"/>
        </organization>
      </PractitionerRole>
    </resource>
  </entry>
  <entry>
    <fullUrl value="urn:uuid:34dc227e-fac0-4104-958e-33510f453631"/>
    <resource>
      <Practitioner>
        <id value="34dc227e-fac0-4104-958e-33510f453631"/>
        <meta>
          <profile value="http://fhir.ch/ig/ch-emed/StructureDefinition/ch-emed-practitioner"/>
        </meta>
        <text>
          <status value="generated"/><div xmlns="http://www.w3.org/1999/xhtml"><a name="Practitioner_34dc227e-fac0-4104-958e-33510f453631"> </a><p class="res-header-id"><b>Generated Narrative: Practitioner 34dc227e-fac0-4104-958e-33510f453631</b></p><a name="34dc227e-fac0-4104-958e-33510f453631"> </a><a name="hc34dc227e-fac0-4104-958e-33510f453631"> </a><a name="34dc227e-fac0-4104-958e-33510f453631-en-US"> </a><p><b>identifier</b>: <a href="https://www.gs1.org/standards/id-keys/gln" title="Global Location Number">GLN</a>/7601000234438</p><p><b>name</b>: Familien Hausarzt </p></div>
        </text>
        <identifier>
          <system value="urn:oid:2.51.1.3"/>
          <value value="7601000234438"/>
        </identifier>
        <name>
          <family value="Hausarzt"/>
          <given value="Familien"/>
        </name>
      </Practitioner>
    </resource>
  </entry>
  <entry>
    <fullUrl value="urn:uuid:7801bb18-5c19-4d4c-bcb5-536a1f51f83e"/>
    <resource>
      <Organization>
        <id value="7801bb18-5c19-4d4c-bcb5-536a1f51f83e"/>
        <meta>
          <profile value="http://fhir.ch/ig/ch-core/StructureDefinition/ch-core-organization"/>
        </meta>
        <text>
          <status value="generated"/><div xmlns="http://www.w3.org/1999/xhtml"><a name="Organization_7801bb18-5c19-4d4c-bcb5-536a1f51f83e"> </a><p class="res-header-id"><b>Generated Narrative: Organization 7801bb18-5c19-4d4c-bcb5-536a1f51f83e</b></p><a name="7801bb18-5c19-4d4c-bcb5-536a1f51f83e"> </a><a name="hc7801bb18-5c19-4d4c-bcb5-536a1f51f83e"> </a><a name="7801bb18-5c19-4d4c-bcb5-536a1f51f83e-en-US"> </a><p><b>identifier</b>: <a href="https://www.gs1.org/standards/id-keys/gln" title="Global Location Number">GLN</a>/7601000234438</p><p><b>name</b>: Hausarzt</p><p><b>address</b>: Krankenstrasse 2 Z端rich 8005 CH </p></div>
        </text>
        <identifier>
          <system value="urn:oid:2.51.1.3"/>
          <value value="7601000234438"/>
        </identifier>
        <name value="Hausarzt"/>
        <address>
          <line value="Krankenstrasse 2"/>
          <city value="Z端rich"/>
          <postalCode value="8005"/>
          <country value="CH"/>
        </address>
      </Organization>
    </resource>
  </entry>
  <entry>
    <fullUrl value="urn:uuid:be797d45-82c7-4d4a-8d1e-82a7fd26e44e"/>
    <resource>
      <MedicationStatement>
        <id value="be797d45-82c7-4d4a-8d1e-82a7fd26e44e"/>
        <meta>
          <profile value="http://fhir.ch/ig/ch-emed/StructureDefinition/ch-emed-medicationstatement-card"/>
        </meta>
        <text>
          <status value="extensions"/><div xmlns="http://www.w3.org/1999/xhtml"><a name="MedicationStatement_be797d45-82c7-4d4a-8d1e-82a7fd26e44e"> </a><p class="res-header-id"><b>Generated Narrative: MedicationStatement be797d45-82c7-4d4a-8d1e-82a7fd26e44e</b></p><a name="be797d45-82c7-4d4a-8d1e-82a7fd26e44e"> </a><a name="hcbe797d45-82c7-4d4a-8d1e-82a7fd26e44e"> </a><a name="be797d45-82c7-4d4a-8d1e-82a7fd26e44e-en-US"> </a><blockquote><p><b>CH EMED Extension Treatment Plan</b></p><ul><li>id: <a href="http://terminology.hl7.org/6.1.0/NamingSystem-uri.html" title="As defined by RFC 3986 (http://www.ietf.org/rfc/rfc3986.txt)(with many schemes defined in many RFCs). For OIDs and UUIDs, use the URN form (urn:oid:(note: lowercase) and urn:uuid:). See http://www.ietf.org/rfc/rfc3001.txt and http://www.ietf.org/rfc/rfc4122.txt 

This oid is used as an identifier II.root to indicate the the extension is an absolute URI (technically, an IRI). Typically, this is used for OIDs and GUIDs. Note that when this OID is used with OIDs and GUIDs, the II.extension should start with urn:oid or urn:uuid: 

Note that this OID is created to aid with interconversion between CDA and FHIR - FHIR uses urn:ietf:rfc:3986 as equivalent to this OID. URIs as identifiers appear more commonly in FHIR.

This OID may also be used in CD.codeSystem.">Uniform Resource Identifier (URI)</a>/urn:uuid:56c82cf2-123e-4401-80a4-28a5dd059979</li><li>externalDocumentId: <a href="http://terminology.hl7.org/6.1.0/NamingSystem-uri.html" title="As defined by RFC 3986 (http://www.ietf.org/rfc/rfc3986.txt)(with many schemes defined in many RFCs). For OIDs and UUIDs, use the URN form (urn:oid:(note: lowercase) and urn:uuid:). See http://www.ietf.org/rfc/rfc3001.txt and http://www.ietf.org/rfc/rfc4122.txt 

This oid is used as an identifier II.root to indicate the the extension is an absolute URI (technically, an IRI). Typically, this is used for OIDs and GUIDs. Note that when this OID is used with OIDs and GUIDs, the II.extension should start with urn:oid or urn:uuid: 

Note that this OID is created to aid with interconversion between CDA and FHIR - FHIR uses urn:ietf:rfc:3986 as equivalent to this OID. URIs as identifiers appear more commonly in FHIR.

This OID may also be used in CD.codeSystem.">Uniform Resource Identifier (URI)</a>/urn:uuid:56c82cf2-123e-4401-80a4-28a5dd059979</li></ul></blockquote><p><b>identifier</b>: <a href="http://terminology.hl7.org/6.1.0/NamingSystem-uri.html" title="As defined by RFC 3986 (http://www.ietf.org/rfc/rfc3986.txt)(with many schemes defined in many RFCs). For OIDs and UUIDs, use the URN form (urn:oid:(note: lowercase) and urn:uuid:). See http://www.ietf.org/rfc/rfc3001.txt and http://www.ietf.org/rfc/rfc4122.txt 

This oid is used as an identifier II.root to indicate the the extension is an absolute URI (technically, an IRI). Typically, this is used for OIDs and GUIDs. Note that when this OID is used with OIDs and GUIDs, the II.extension should start with urn:oid or urn:uuid: 

Note that this OID is created to aid with interconversion between CDA and FHIR - FHIR uses urn:ietf:rfc:3986 as equivalent to this OID. URIs as identifiers appear more commonly in FHIR.

This OID may also be used in CD.codeSystem.">Uniform Resource Identifier (URI)</a>/urn:uuid:af9e960d-99bf-46d5-8a72-8f863512246b</p><p><b>status</b>: Active</p><p><b>medication</b>: <a href="#hcbe797d45-82c7-4d4a-8d1e-82a7fd26e44e/Beloczok">Medication BELOC ZOK Ret Tabl 50 mg 30 Stk</a></p><p><b>subject</b>: <a href="Bundle-2-7-MedicationCard-UUIDfullUrl.html#urn-uuid-9616e879-c4d0-411e-88c3-e001cb7a8fcd">Bundle: identifier = UUID:b4bbd9ed-bada-41b5-a513-b4bc73ca0ebb; type = document; timestamp = 2012-02-04 14:05:00+0100</a></p><p><b>dateAsserted</b>: 2012-02-04 14:00:00+0100</p><p><b>informationSource</b>: <a href="Bundle-2-7-MedicationCard-UUIDfullUrl.html#urn-uuid-9837b87a-aaa7-4389-aa03-39442cee2c45">Bundle: identifier = UUID:b4bbd9ed-bada-41b5-a513-b4bc73ca0ebb; type = document; timestamp = 2012-02-04 14:05:00+0100</a></p><p><b>reasonCode</b>: <span title="Codes:">Bluthochdruck</span></p><blockquote><p><b>dosage</b></p><p><b>sequence</b>: 1</p><p><b>patientInstruction</b>: -</p><p><b>timing</b>: , ?ngen-6?</p><p><b>route</b>: <span title="Codes:{urn:oid:0.4.0.127.0.16.1.1.2.1 20053000}">zum Einnehmen</span></p><h3>DoseAndRates</h3><table class="grid"><tr><td style="display: none">-</td><td><b>Dose[x]</b></td></tr><tr><td style="display: none">*</td><td>1 Tablet (unit of presentation)<span style="background: LightGoldenRodYellow"> (Details: SNOMED CT  code732936001 = 'Tablet (unit of presentation)')</span></td></tr></table></blockquote><blockquote><p><b>dosage</b></p><p><b>sequence</b>: 2</p><p><b>timing</b>: , ?ngen-6?</p><h3>DoseAndRates</h3><table class="grid"><tr><td style="display: none">-</td><td><b>Dose[x]</b></td></tr><tr><td style="display: none">*</td><td>0.5 Tablet (unit of presentation)<span style="background: LightGoldenRodYellow"> (Details: SNOMED CT  code732936001 = 'Tablet (unit of presentation)')</span></td></tr></table></blockquote><hr/><blockquote><p class="res-header-id"><b>Generated Narrative: Medication  #Beloczok</b></p><a name="be797d45-82c7-4d4a-8d1e-82a7fd26e44e/Beloczok"> </a><a name="hcbe797d45-82c7-4d4a-8d1e-82a7fd26e44e/Beloczok"> </a><a name="be797d45-82c7-4d4a-8d1e-82a7fd26e44e/Beloczok-en-US"> </a><p><b>code</b>: <span title="Codes:{urn:oid:2.51.1.1 7680521101306}">BELOC ZOK Ret Tabl 50 mg</span></p><p><b>form</b>: <span title="Codes:{urn:oid:0.4.0.127.0.16.1.1.2.1 10219000}">Tablette</span></p><p><b>amount</b>: 20 Tablet (unit of presentation)<span style="background: LightGoldenRodYellow"> (Details: SNOMED CT  code732936001 = 'Tablet (unit of presentation)')</span>/1 Package - unit of product usage (qualifier value)<span style="background: LightGoldenRodYellow"> (Details: SNOMED CT  code1681000175101 = 'Package - unit of product usage')</span></p><h3>Ingredients</h3><table class="grid"><tr><td style="display: none">-</td><td><b>Item[x]</b></td><td><b>Strength</b></td></tr><tr><td style="display: none">*</td><td><span title="Codes:{http://snomed.info/sct 372826007}">Metoprolol</span></td><td>50 milligram<span style="background: LightGoldenRodYellow"> (Details: UCUM  codemg = 'mg')</span>/1 Tablet (unit of presentation)<span style="background: LightGoldenRodYellow"> (Details: SNOMED CT  code732936001 = 'Tablet (unit of presentation)')</span></td></tr></table></blockquote></div>
        </text>
        <contained>
          <Medication>
            <id value="Beloczok"/>
            <meta>
              <profile value="http://fhir.ch/ig/ch-emed/StructureDefinition/ch-emed-medication"/>
            </meta>
            <code>
              <coding>
                <system value="urn:oid:2.51.1.1"/>
                <code value="7680521101306"/>
                <display value="BELOC ZOK Ret Tabl 50 mg 30 Stk"/>
              </coding>
              <text value="BELOC ZOK Ret Tabl 50 mg"/>
            </code>
            <form>
              <coding>
                <system value="urn:oid:0.4.0.127.0.16.1.1.2.1"/>
                <code value="10219000"/>
                <display value="Tablet"/>
              </coding>
              <text value="Tablette"/>
            </form>
            <amount>
              <numerator>
                <value value="20"/>
                <unit value="Tablet (unit of presentation)"/>
                <system value="http://snomed.info/sct"/>
                <code value="732936001"/>
              </numerator>
              <denominator>
                <value value="1"/>
                <unit value="Package - unit of product usage (qualifier value)"/>
                <system value="http://snomed.info/sct"/>
                <code value="1681000175101"/>
              </denominator>
            </amount>
            <ingredient>
              <itemCodeableConcept>
                <coding>
                  <system value="http://snomed.info/sct"/>
                  <code value="372826007"/>
                  <display value="Metoprolol (substance)"/>
                </coding>
                <text value="Metoprolol"/>
              </itemCodeableConcept>
              <strength>
                <numerator>
                  <value value="50"/>
                  <unit value="milligram"/>
                  <system value="http://unitsofmeasure.org"/>
                  <code value="mg"/>
                </numerator>
                <denominator>
                  <value value="1"/>
                  <unit value="Tablet (unit of presentation)"/>
                  <system value="http://snomed.info/sct"/>
                  <code value="732936001"/>
                </denominator>
              </strength>
            </ingredient>
          </Medication>
        </contained>
        <extension url="http://fhir.ch/ig/ch-emed/StructureDefinition/ch-emed-ext-treatmentplan">
          <extension url="id">
            <valueIdentifier>
              <system value="urn:ietf:rfc:3986"/>
              <value value="urn:uuid:56c82cf2-123e-4401-80a4-28a5dd059979"/>
            </valueIdentifier>
          </extension>
          <extension url="externalDocumentId">
            <valueIdentifier>
              <system value="urn:ietf:rfc:3986"/>
              <value value="urn:uuid:56c82cf2-123e-4401-80a4-28a5dd059979"/>
            </valueIdentifier>
          </extension>
        </extension>
        <identifier>
          <system value="urn:ietf:rfc:3986"/>
          <value value="urn:uuid:af9e960d-99bf-46d5-8a72-8f863512246b"/>
        </identifier>
        <status value="active"/>
        <medicationReference>
          <reference value="#Beloczok"/>
        </medicationReference>
        <subject>
          <reference value="urn:uuid:9616e879-c4d0-411e-88c3-e001cb7a8fcd"/>
        </subject>
        <dateAsserted value="2012-02-04T14:00:00+01:00"/>
        <informationSource>
          <reference value="urn:uuid:9837b87a-aaa7-4389-aa03-39442cee2c45"/>
        </informationSource>
        <reasonCode>
          <text value="Bluthochdruck"/>
        </reasonCode>
        <dosage>
          <sequence value="1"/>
          <patientInstruction value="-"/>
          <timing>
            <repeat>
              <boundsPeriod>
                <start value="2012-02-04"/>
              </boundsPeriod>
              <when value="MORN"/>
            </repeat>
          </timing>
          <route>
            <coding>
              <system value="urn:oid:0.4.0.127.0.16.1.1.2.1"/>
              <code value="20053000"/>
              <display value="Oral use"/>
            </coding>
            <text value="zum Einnehmen"/>
          </route>
          <doseAndRate>
            <doseQuantity>
              <value value="1"/>
              <unit value="Tablet (unit of presentation)"/>
              <system value="http://snomed.info/sct"/>
              <code value="732936001"/>
            </doseQuantity>
          </doseAndRate>
        </dosage>
        <dosage>
          <sequence value="2"/>
          <timing>
            <repeat>
              <when value="EVE"/>
            </repeat>
          </timing>
          <doseAndRate>
            <doseQuantity>
              <value value="0.5"/>
              <unit value="Tablet (unit of presentation)"/>
              <system value="http://snomed.info/sct"/>
              <code value="732936001"/>
            </doseQuantity>
          </doseAndRate>
        </dosage>
      </MedicationStatement>
    </resource>
  </entry>
  <entry>
    <fullUrl value="urn:uuid:99e5810c-1afa-43da-8a0e-e7f9086e300a"/>
    <resource>
      <MedicationStatement>
        <id value="99e5810c-1afa-43da-8a0e-e7f9086e300a"/>
        <meta>
          <profile value="http://fhir.ch/ig/ch-emed/StructureDefinition/ch-emed-medicationstatement-card"/>
        </meta>
        <text>
          <status value="extensions"/><div xmlns="http://www.w3.org/1999/xhtml"><a name="MedicationStatement_99e5810c-1afa-43da-8a0e-e7f9086e300a"> </a><p class="res-header-id"><b>Generated Narrative: MedicationStatement 99e5810c-1afa-43da-8a0e-e7f9086e300a</b></p><a name="99e5810c-1afa-43da-8a0e-e7f9086e300a"> </a><a name="hc99e5810c-1afa-43da-8a0e-e7f9086e300a"> </a><a name="99e5810c-1afa-43da-8a0e-e7f9086e300a-en-US"> </a><blockquote><p><b>CH EMED Extension Treatment Plan</b></p><ul><li>id: <a href="http://terminology.hl7.org/6.1.0/NamingSystem-uri.html" title="As defined by RFC 3986 (http://www.ietf.org/rfc/rfc3986.txt)(with many schemes defined in many RFCs). For OIDs and UUIDs, use the URN form (urn:oid:(note: lowercase) and urn:uuid:). See http://www.ietf.org/rfc/rfc3001.txt and http://www.ietf.org/rfc/rfc4122.txt 

This oid is used as an identifier II.root to indicate the the extension is an absolute URI (technically, an IRI). Typically, this is used for OIDs and GUIDs. Note that when this OID is used with OIDs and GUIDs, the II.extension should start with urn:oid or urn:uuid: 

Note that this OID is created to aid with interconversion between CDA and FHIR - FHIR uses urn:ietf:rfc:3986 as equivalent to this OID. URIs as identifiers appear more commonly in FHIR.

This OID may also be used in CD.codeSystem.">Uniform Resource Identifier (URI)</a>/urn:uuid:0e9a0b8a-8306-4e35-bb92-0ba424696349</li><li>externalDocumentId: <a href="http://terminology.hl7.org/6.1.0/NamingSystem-uri.html" title="As defined by RFC 3986 (http://www.ietf.org/rfc/rfc3986.txt)(with many schemes defined in many RFCs). For OIDs and UUIDs, use the URN form (urn:oid:(note: lowercase) and urn:uuid:). See http://www.ietf.org/rfc/rfc3001.txt and http://www.ietf.org/rfc/rfc4122.txt 

This oid is used as an identifier II.root to indicate the the extension is an absolute URI (technically, an IRI). Typically, this is used for OIDs and GUIDs. Note that when this OID is used with OIDs and GUIDs, the II.extension should start with urn:oid or urn:uuid: 

Note that this OID is created to aid with interconversion between CDA and FHIR - FHIR uses urn:ietf:rfc:3986 as equivalent to this OID. URIs as identifiers appear more commonly in FHIR.

This OID may also be used in CD.codeSystem.">Uniform Resource Identifier (URI)</a>/urn:uuid:0e9a0b8a-8306-4e35-bb92-0ba424696349</li></ul></blockquote><p><b>identifier</b>: <a href="http://terminology.hl7.org/6.1.0/NamingSystem-uri.html" title="As defined by RFC 3986 (http://www.ietf.org/rfc/rfc3986.txt)(with many schemes defined in many RFCs). For OIDs and UUIDs, use the URN form (urn:oid:(note: lowercase) and urn:uuid:). See http://www.ietf.org/rfc/rfc3001.txt and http://www.ietf.org/rfc/rfc4122.txt 

This oid is used as an identifier II.root to indicate the the extension is an absolute URI (technically, an IRI). Typically, this is used for OIDs and GUIDs. Note that when this OID is used with OIDs and GUIDs, the II.extension should start with urn:oid or urn:uuid: 

Note that this OID is created to aid with interconversion between CDA and FHIR - FHIR uses urn:ietf:rfc:3986 as equivalent to this OID. URIs as identifiers appear more commonly in FHIR.

This OID may also be used in CD.codeSystem.">Uniform Resource Identifier (URI)</a>/urn:uuid:92f5d646-2b51-4266-84e3-a50f531ca287</p><p><b>status</b>: Active</p><p><b>medication</b>: <a href="#hc99e5810c-1afa-43da-8a0e-e7f9086e300a/Norvasc">Medication NORVASC Tabl 10 mg</a></p><p><b>subject</b>: <a href="Bundle-2-7-MedicationCard-UUIDfullUrl.html#urn-uuid-9616e879-c4d0-411e-88c3-e001cb7a8fcd">Bundle: identifier = UUID:b4bbd9ed-bada-41b5-a513-b4bc73ca0ebb; type = document; timestamp = 2012-02-04 14:05:00+0100</a></p><p><b>dateAsserted</b>: 2012-02-04 14:00:00+0100</p><p><b>informationSource</b>: <a href="Bundle-2-7-MedicationCard-UUIDfullUrl.html#urn-uuid-9837b87a-aaa7-4389-aa03-39442cee2c45">Bundle: identifier = UUID:b4bbd9ed-bada-41b5-a513-b4bc73ca0ebb; type = document; timestamp = 2012-02-04 14:05:00+0100</a></p><p><b>reasonCode</b>: <span title="Codes:">Bluthochdruck</span></p><blockquote><p><b>dosage</b></p><p><b>patientInstruction</b>: -</p><p><b>timing</b>: , ?ngen-6?, ?ngen-6?</p><p><b>route</b>: <span title="Codes:{urn:oid:0.4.0.127.0.16.1.1.2.1 20053000}">zum Einnehmen</span></p><h3>DoseAndRates</h3><table class="grid"><tr><td style="display: none">-</td><td><b>Dose[x]</b></td></tr><tr><td style="display: none">*</td><td>1 Tablet (unit of presentation)<span style="background: LightGoldenRodYellow"> (Details: SNOMED CT  code732936001 = 'Tablet (unit of presentation)')</span></td></tr></table></blockquote><hr/><blockquote><p class="res-header-id"><b>Generated Narrative: Medication  #Norvasc</b></p><a name="99e5810c-1afa-43da-8a0e-e7f9086e300a/Norvasc"> </a><a name="hc99e5810c-1afa-43da-8a0e-e7f9086e300a/Norvasc"> </a><a name="99e5810c-1afa-43da-8a0e-e7f9086e300a/Norvasc-en-US"> </a><p><b>code</b>: <span title="Codes:{urn:oid:2.51.1.1 7680500440334}">NORVASC Tabl 10 mg</span></p><p><b>form</b>: <span title="Codes:{urn:oid:0.4.0.127.0.16.1.1.2.1 10219000}">Tablette</span></p><p><b>amount</b>: 20 Tablet (unit of presentation)<span style="background: LightGoldenRodYellow"> (Details: SNOMED CT  code732936001 = 'Tablet (unit of presentation)')</span>/1 Package - unit of product usage (qualifier value)<span style="background: LightGoldenRodYellow"> (Details: SNOMED CT  code1681000175101 = 'Package - unit of product usage')</span></p><h3>Ingredients</h3><table class="grid"><tr><td style="display: none">-</td><td><b>Item[x]</b></td><td><b>Strength</b></td></tr><tr><td style="display: none">*</td><td><span title="Codes:{http://snomed.info/sct 386864001}">Amlodipine</span></td><td>10 milligram<span style="background: LightGoldenRodYellow"> (Details: UCUM  codemg = 'mg')</span>/1 Tablet (unit of presentation)<span style="background: LightGoldenRodYellow"> (Details: SNOMED CT  code732936001 = 'Tablet (unit of presentation)')</span></td></tr></table></blockquote></div>
        </text>
        <contained>
          <Medication>
            <id value="Norvasc"/>
            <meta>
              <profile value="http://fhir.ch/ig/ch-emed/StructureDefinition/ch-emed-medication"/>
            </meta>
            <code>
              <coding>
                <system value="urn:oid:2.51.1.1"/>
                <code value="7680500440334"/>
                <display value="NORVASC Tabl 10 mg"/>
              </coding>
              <text value="NORVASC Tabl 10 mg"/>
            </code>
            <form>
              <coding>
                <system value="urn:oid:0.4.0.127.0.16.1.1.2.1"/>
                <code value="10219000"/>
                <display value="Tablet"/>
              </coding>
              <text value="Tablette"/>
            </form>
            <amount>
              <numerator>
                <value value="20"/>
                <unit value="Tablet (unit of presentation)"/>
                <system value="http://snomed.info/sct"/>
                <code value="732936001"/>
              </numerator>
              <denominator>
                <value value="1"/>
                <unit value="Package - unit of product usage (qualifier value)"/>
                <system value="http://snomed.info/sct"/>
                <code value="1681000175101"/>
              </denominator>
            </amount>
            <ingredient>
              <itemCodeableConcept>
                <coding>
                  <system value="http://snomed.info/sct"/>
                  <code value="386864001"/>
                  <display value="Amlodipine (substance)"/>
                </coding>
                <text value="Amlodipine"/>
              </itemCodeableConcept>
              <strength>
                <numerator>
                  <value value="10"/>
                  <unit value="milligram"/>
                  <system value="http://unitsofmeasure.org"/>
                  <code value="mg"/>
                </numerator>
                <denominator>
                  <value value="1"/>
                  <unit value="Tablet (unit of presentation)"/>
                  <system value="http://snomed.info/sct"/>
                  <code value="732936001"/>
                </denominator>
              </strength>
            </ingredient>
          </Medication>
        </contained>
        <extension url="http://fhir.ch/ig/ch-emed/StructureDefinition/ch-emed-ext-treatmentplan">
          <extension url="id">
            <valueIdentifier>
              <system value="urn:ietf:rfc:3986"/>
              <value value="urn:uuid:0e9a0b8a-8306-4e35-bb92-0ba424696349"/>
            </valueIdentifier>
          </extension>
          <extension url="externalDocumentId">
            <valueIdentifier>
              <system value="urn:ietf:rfc:3986"/>
              <value value="urn:uuid:0e9a0b8a-8306-4e35-bb92-0ba424696349"/>
            </valueIdentifier>
          </extension>
        </extension>
        <identifier>
          <system value="urn:ietf:rfc:3986"/>
          <value value="urn:uuid:92f5d646-2b51-4266-84e3-a50f531ca287"/>
        </identifier>
        <status value="active"/>
        <medicationReference>
          <reference value="#Norvasc"/>
        </medicationReference>
        <subject>
          <reference value="urn:uuid:9616e879-c4d0-411e-88c3-e001cb7a8fcd"/>
        </subject>
        <dateAsserted value="2012-02-04T14:00:00+01:00"/>
        <informationSource>
          <reference value="urn:uuid:9837b87a-aaa7-4389-aa03-39442cee2c45"/>
        </informationSource>
        <reasonCode>
          <text value="Bluthochdruck"/>
        </reasonCode>
        <dosage>
          <patientInstruction value="-"/>
          <timing>
            <repeat>
              <boundsPeriod>
                <start value="2012-02-04"/>
              </boundsPeriod>
              <when value="MORN"/>
              <when value="EVE"/>
            </repeat>
          </timing>
          <route>
            <coding>
              <system value="urn:oid:0.4.0.127.0.16.1.1.2.1"/>
              <code value="20053000"/>
              <display value="Oral use"/>
            </coding>
            <text value="zum Einnehmen"/>
          </route>
          <doseAndRate>
            <doseQuantity>
              <value value="1"/>
              <unit value="Tablet (unit of presentation)"/>
              <system value="http://snomed.info/sct"/>
              <code value="732936001"/>
            </doseQuantity>
          </doseAndRate>
        </dosage>
      </MedicationStatement>
    </resource>
  </entry>
  <entry id="d5c77e2e-798d-4437-8f73-4875c35065ef">
    <fullUrl value="urn:uuid:d5c77e2e-798d-4437-8f73-4875c35065ef"/>
    <resource>
      <Binary>
        <id value="d5c77e2e-798d-4437-8f73-4875c35065ef"/>
        <language value="de-CH"/>
        <contentType value="application/pdf"/>
        <data value=""/>
      </Binary>
    </resource>
  </entry>
</Bundle>